
-----------------------------------------------------------------------------------------------
logins

code - http://support.sas.com/bookcode (cdisc - hollande + shostak)
brian.stropich@gmail.com
Bss_101699

cdisc - https://library.cdisc.org 
brianstropich@hotmail.com
Bss#101699

youtube - fastforward by 5 seconds = right arrow


-----------------------------------------------------------------------------------------------
terms + documentation

crf - case report form
clinical protocol
statistical analysis plan (sap)
cdisc sdtm mapping specification (source to target, domain, variables, transformation, derivation, mapping logic, etc.)

cdash - 
sdtm - study data tabulation model 
adam -

clinical trial edc databases - capture crf data

clinical study - CROs, pharma, biotech
electronic data capture (EDC) system is a software platform that collects, manages, and stores clinical trial data electronically.
edc systems = medidata, redcap, oracle clinical, rave, veeva, medrio
cdm - clinical data management 
gcp - good clinical practice

https://clinicaltrials.gov/
https://clinicaltrials.gov/search?term=Adaptimmune
https://clinicaltrials.gov/study/NCT03391778?term=Adaptimmune&rank=1

terminology:
https://www.cdisc.org/standards/terminology/controlled-terminology
https://evs.nci.nih.gov/ftp1/CDISC/SDTM/

code reference sites:
https://github.com/rogerjdeangelis/utl-end-to-end-cdisc-SDTM-ADaM-processing
search for ae.xpt files on github

foundation - guides + PDFs
https://www.cdisc.org/standards/foundational

https://library.cdisc.org/browser/#/mdr/cdash/1-3/classes/Interventions
export - excel

SDTMIG v3.4
https://library.cdisc.org/browser/#/mdr/sdtmig/3-4/classes/GeneralObservations
export - excel

ADaMIG v1.3
https://library.cdisc.org/browser/#/mdr/adam/adamig-1-3/datastructures/ADSL/variablesets/Identifier
export - excel


The Journey of Converting Raw Data into SDTM Datasets
The SDTM Process
SDTM Validation and Quality Check
https://www.amarexcro.com/resources/chaos-to-clarity-journey-converting-raw-data-into-sdtm-datasets



difference between sdtm and sdtmig

in simpler terms... SDTM is the blueprint, 
and SDTMIG is the instruction manual for building the data structure based on that blueprint

While both SDTM and SDTMIG are standards used to organize clinical 
trial data, SDTM is the core model defining the standard structure for data 
organization, while SDTMIG acts as an implementation guide that provides
specific details on how to format and structure SDTM datasets for clinical 
trial tabulations, essentially providing practical guidance on applying the
SDTM model in real-world scenarios; 

Medtronic Post-Approval Network (PAN)..........................
The Medtronic Post-Approval Network (PAN) is a global network of hospitals, clinics,
and clinicians that conducts post-market surveillance of Medtronic cardiac rhythm 
products. The PAN Registry is a patient-centric platform that collects data about 
patients and their health to monitor the performance of Medtronic devices. 

Is post market surveillance phase 4..............................
These trials look for side effects that were not seen in earlier trials and may also 
study how well a new treatment works over a long period of time. Post-marketing surveillance 
trials may include thousands of people. Also called phase 4 clinical trial and phase IV clinical trial.

ADSL........................
In CDISC (Clinical Data Interchange Standards Consortium), "ADSL" refers to the "Analysis 
Data Model Subject-Level Analysis Dataset," which is a core component of the ADaM (Analysis
Data Model) framework, used to standardize and present subject-level data for clinical 
trial analysis, making it the primary dataset used for analysis within the ADaM standard. 

A clinical arm is a group of participants in a clinical trial who receive 
a specific treatment or no treatment, as per the trial's protocol. 

There are different types of clinical arms, including:

	Experimental arm: Receives an experimental drug 
	Control arm: Receives an active comparator, placebo comparator, sham comparator, or no intervention 
	Treatment arm: Also known as the treatment group, this is the group of participants that receives the treatment under investigation 



In CDISC (Clinical Data Interchange Standards Consortium), a "Statistical Analysis Plan" (SAP) 
is a detailed document that outlines the exact statistical methods and procedures that will 
be used to analyze data collected during a clinical trial, ensuring transparency and reproducibility 
in the interpretation of results; it specifies which data will be analyzed, the patient populations
to be assessed, and the statistical methods to be applied, essentially acting as a blueprint for
the data analysis process within a clinical trial. 

Key points about SAP in CDISC:

Purpose:
To clearly define how clinical trial data will be analyzed, including population selection, 
analysis methods, and how results will be presented, ensuring consistency and adherence to 
regulatory standards. 

Content:
The SAP typically includes details like primary and secondary endpoints, statistical tests 
to be used, data transformations, missing data handling strategies, and planned analysis
populations. 

Importance in CDISC:
By using standardized CDISC standards, particularly the ADaM (Analysis Dataset Model), 
researchers can ensure that the data is properly formatted and ready for analysis according 
to the specifications outlined in the SAP. 

Relationship with other documents:
The SAP is closely linked to the clinical trial protocol, as it provides the statistical 
details behind the trial design and objectives. 



---------------------------------------------------------------------------------
youtube training



CDISC What is SDTM 
https://www.youtube.com/watch?v=L2EwLnIuMwg
observation classes

	sdtm - study data tabulation model
		format
		organizing
		describing
		
		trial or research data
		model organizes standarization and relation
			sendig
			sdtmig
			medical devices
			TAUGs - theraputic guides

	general observation clases - 3 + 1 
	interventions
		comcomitant medications
		exposure
		substance use

	events
		adverse event
		dispostion
		medical history
		protocol deviation
		clinical event

	findings
		ecg
		incl/escl
		labs
		physical exams
		pharmacokmetics concentrations
		microbiology speciman
		questionnaire
		sub/char
		vital signs
		drug accountability
		pharmacokinetics parameters
		microbilogy susecptibility
		
	special purposes - additional information that dont fit into the 3 main
		demographics
		comments
		subject elements
		subject visits
			
	sdtm variables
		identifier - sutdyid + domaing + usubjid + record sequence --seq
		topic - trt + term + testcd
		qualifier - grouping + result + synonym + record+ variable
		timing - date, times, study days, durations, intervals, vistits, time points, relative times
		
		refereence sdtmig v3.2 - for documentation
		
		dash dash prefix are for domain codes
		--testcd
		--test
		--modify
		--tstdtl
		--cat
		--scat
		
		
	sdtm + sdtmig work together
	
	
---------------------------------------------------------------------------------

video 0:

What is CDISC SDTM ADaM & TLF'S? | Role of SAS Programmer in Clinical Trail Process & Phases 
https://www.youtube.com/watch?v=zJrRyXgM_qU&list=PLbW_LFBIHlxu2abXtm0KE3HSZu1YCuRMO
eduemaster

2:14 Difference between Clinical SAS & Financial SAS
16:00 Role of SAS Programmer in Clinical Trail Process
20:28 What is CDISC SDTM ADaM & TLF'S?
23:54 Clinical Trail Process - Drug development Process
36:40 Teams Involved in Clinical Trail Process



clinical sas project training
role of sas programmer

clinical sas
	pharma1 - patient ID, DOB
	pharma2 - subject ID, birth date
				
	cdisc sdtm standards
		usubjid
		brithdtc
		
	regulatory for approval	
	
	base + advance sas programming
	cdisc sdtm adam standards 
	cdisc - orgranization developed standards

clinical sdtm adam tlf training

	role of sas programmer
	processing the clinical trial study data
		sas programming
		cdisc ogranization developed standards (sdtm)
	developing analysis datasets
		sas programming
		cdisc ogranization developed standards (adam)
		statistician will develop insights
	reporting (tlf)
		table
		listing
		figures
		templates provided / model report using sdtm or adam data
		clinical project - project lead, team, sr programmer, biostatistician, etc
		
clinical trial phases	

	the drug development process
		new drugs
		new devices
	
	preclinical - safe + animal studies + dont work on preclinical studies
	phase 1 - saftety + human studies 
		  10-30 patients
		  data submitted to regulatory
		  regulatory approval
	phase 2 - safety efficacy
		  100-300 patients
		  data submitted to regulatory
		  regulatory approval
	phase 3 - safety efficacy
		  1000s of patients
		  data submitted to regulatory
		  regulatory approval
		  launching a drug for commerical use
	phase 4 - post marketing long term safety
		  prescriber medication
		  keep monitoring
		  regulatory will monitor products
		  
		  
	teams - clinical project
		sponsor
		protocol team
		crf design team
		site management team
		clinical data management team
		data analysis team
		medical writing team
	
---------------------------------------------------------------------------------

video 1:

what are clinical trials?
	safety 
	efficacy or efficiency
	
	scientific method
	
types of clinical trials
	treatment trials
	prevention trials
	diagnostic trials - deterimine better tests or procedures for diagnosising disease or condition
	screening trials - test best way to detect or treat diseases
	quality of life trials - explore and measure ways to improve quality of life

sponsors
	funded by companies that make pharmaceuticals or medical devices
	tirals can oocur at sites as hospitals, university, clinics
	
clinical are done in phases
	pre-clinical trial mush be done before clinical trial starts
	pre-clinical tiral - research drug, device, procedure done on animals and see if safe to test on humans
	
	phase 1 - test drug or treatment small group
			20-80 people
			evaluate safety and identify side effects		
			require people to volunteer
			
	phase 2 - test on larger group
			100-300 people
			determine effectivenes and evaluate safety
			
	phase 3 - test on larger group
			300-3000+ people
			confirm effectiveness
			monitor side effects
			compare with standard equivalent treatments
			
	phase 4 - 10000-50000 group
			marketing
			price
			benefits
			drugs risks
			
	medical companies 
		get approval
		fda
		dcgi
	
	cdisc - organization 
	set global standards
	speed up development process
	implementation guide for fda to evaluate based on standards
		sdtm ig 3.2
		adam ig 1.1
		tlf
			
---------------------------------------------------------------------------------

video 2:

sponsor
r&d facility
pre-clinical trials (animals)

phase 1 
	30-80
	healthy subjects (subjects = member or people) 
	safety
phase 2 
	100-500
	1. patients suffering with the same disease 
	2. patients suffering with the different disease
	3. healthly subjects
	efficacy
	side effects
phase 3
	crucial
	1000-5000 people
		gender - test on both M + F subjects
		age groups
		continents
		diverse subjects
		etc.
	safety	
	efficacy
	side effects	
phase 4
	10k-50k
	marketing
	capital
	price
	dosage
	stock or volume (1 million dosages)
	marketing strategy
approval
	reports (sas)
	standards
		format
		manadatory parameters
		values
	USA = FDA
	Europe = EMA
	India = DCGI
	globalize standards
		FDA - CDISC
		SDTM
		ADAM
		TLF = tables / listing figures
		
	SDTM IG 3.2
	ADAM 1.1
	
	
every clinical investigation begins wtih the development of clinical protocol.
the protocol is a document that describes how a clinical trial will be conducted
(the objectives, design, methodology, statistical considerations, and 
organization of a clinical trial, ) and ensures the saftey of the trial subjects
and integrity of the data collected.

a research protocol is a document that describers the background, rationale, objectives

	title page (general information)
	background information
	objectives/purpose
	study design
	selection and exclusion of subjects
	treatment of subjects
	assessment of efficacy
	assessment of saftey
	adverse events
	discontinuation
	statistics
	quality control
	ethnics
	data handling and recordkeeping
	public policy
	project timetable/flowchar
	references
	supplements/appendices


---------------------------------------------------------------------------------

video 3:

clinical trials
	treatment
	preventivie
	medical device
	
	saftey efficacy
	
	SDTM efficacy domains include Endpoints, Laboratory (LB), 
	and Vital Sign (VS) domains. These domains capture information 
	about the effectiveness of the study intervention. 


clinical programming requires a programmer to understand
	the objective of the clinical trial study
	its phases
	the study design, etc.
	
the 1st step in initiating a clinical trial is writing the protocol.  this is done by
either the sponsor or the contract research organization (cro)

in every trial, the protocol is prepared with the help of the clinician and the biostatistician.
after the investigator receives the protocol, they will determine the feasibility of 
conducting the clinical trial.


clinical trial protocol document
	document
	who = sponsor/cro
	
	document information...
	how a clinical trial will be conducted
	including the objectives
	design
	methhodology
	statistical considerations
	organization of the trial to guarantee the safety of the participants
	the integrity of the collected data
	
	why the clinical trial protocol needed?
	the protocol is a key QC tool for the all aspects of a clinical trial,
	being necessary for serveral reasons...
		it ensures the health and safety of all the study participants
		it provides a precise study plan
		it defines and manages the trial and therefore it should be strictly followed by all study investigators
		it gaurantees integrity of data, allowing combination and compare of data across all investigators or study sites
		
		
clinical trial protocol includes...

	title page (general information)
	background information
	objectives/purpose
	study design
	selection and exclusion of subjects
	treatment of subjects
	assessment of efficacy
	assessment of saftey
	adverse events
	discontinuation
	statistics
	quality control
	ethnics
	data handling and recordkeeping
	public policy
	project timetable/flowchar
	references
	supplements/appendices	


clinical trial protocol helps in building sdtm...
	serves as a foundational requirement document for building sdtm
	defining variables
	inclusion and exclusion criteria
	treatment and visit schedules
	endpoints and assessments
	



in the protocol there is a section called - clinical trial design...
	this is a single center
	double blind
	placebo-controlled
	randomized
	incomplete block
	3 period crossover trial

need to understand each topic and term... the cross functional interaction

	definitions
		protocol
	teams
	sdtm

https://ichgcp.net/6~clinical~trial~protocol~and~protocol~admendments


---------------------------------------------------------------------------------

video 4:

protocol
	elements
	background
		drug comp
		what disease
		non clinical data
		clinical data
		
		define the chemical composition of the investigational product
		mention the disease or condition for which investigational drug product is being evaluated
		provide a brief summary of the non-clinical data that has clinical significance
		provide a brief summary of the clinical
	
	study rationale
		risk / benefit
		
	study objectives
		primary objective
		primary efficacy endpoint
		secondary objective
		
		clinician = doctor
		clinical programmer = sas developer
		
	crossover teams
		sponsor
		invesgtigator
		biostatistician
		cdm (clinical data manager - prepare CRF, data clean, database)
		medical writer


	definitions
		study design
			parallel study
			crossover study
		blinding
			single
			double
			triple
		unblinding
		
		site


---------------------------------------------------------------------------------

video 5:

clinical trial protocol
	a clinical trial protocol is a document describing...
		how a clinical trial will be conducted
		including the objectives
		design
		methodology
		statistical considerations
		organization of the tiral to guarantee saftey of the participants
		integrity of the collected data
		
	why is protocol needed
		the protocol is key quality control tool for all aspects of a clinical trial
		it ensures the health and safety of all the study participants
		provides a precise study plan
		defines and manages the trial
		guarantees integrity of the data
		

	understand cross functional interaction
	sponsor
	investigator - clinician
	biostatistician
	clinical data management - cdm
		crf designing
		crf annotation
		database design
		data entry
		data validation
		medical coding
		data extraction and database locking
			responsibility of programmer to notifiy cdm team either or via biostat
			of any issu or data discrepancy
			programmers may also need to interact with clinical data programmers at the
			time of snapshot create or database lock
		medical writer
			the outputs (tlf) create by statistical sas programmers are used by the
			medical writers to product scientific documentation
			specialized scientific writer
			
study design
	before new drug can be marketed... its sponsor msut show through adequate and well controlled
	clinical studies that it is effective
	
	study drug 	= development and clinical trials
	drug       	= readily in market and approved through clinical trials
	subjects   	= 100 subjects
			  50 healthy 
			  50 patients
			  Male + Female
			  
	parallel study design
		group A - drug A - drug A - drug A (same drug throughout clinical trial)
		group B - drug b - drug b - drug b (same drug throughout clinical trial)
		most common design
		patients are randomly assigned to treatment arms
		each arm could include a particular does fo the study drug - placebo or standard
		patients then remain in same treatment arm throughout course of study
		
		parallel study design
		
		101 - drug a  - end of treatment
		102 - placebo - end of treatment
		
		subjid		arm		actarm
		101		drug a		drug a
		102		drug a		drug a
		103		placebo		placebo
		
		headache
		
		dart 200mg = study drug
		placebo
		
		group A
		Jim
		100 phase 1		phase 2		phase 3		phase 4
		dart 200mg		dart 200mg	dart 200mg	dart 200mg
		
		group B
		Bob
		phase 1		phase 2		phase 3		phase 4
		placebo		placebo		placebo		placebo 		
		
	cross over study design
	
		101 - drug a  - end of treatment
		102 - placebo - end of treatment
		
		subjid		arm				actarm
		101		drug a drug b placebo		drug a drug b placebo
		102		placebo drug a drug b		placebo drug a drug b

		if testing 2 drugs then there is a wash out period of drug taking to get out of system	
		
		parallel study design
		headache
		
		dart 200mg = study drug
		placebo
		
		group A
		Jim
		phase 1		phase 2		phase 3		phase 4
		dart 200mg	placebo		placebo		dart 300mg	
		
		group B
		Bob
		phase 1		phase 2		phase 3		phase 4
		placebo		dart 200mg	placebo		dart 200mg 	
	
		Albert
		phase 1		phase 2		phase 3		phase 4
		dart 200mg	dart 200mg	placebo		dart 200mg 
		
	definitions
		sponsor - pharma that initiate the clinical trial
		subject - participating in the study
		prinicipal investigator - doctor responsible for conducting trial
		study coordinator - research assistant supports the investigator
		site - where the trial happens
		multicenter study - clinical trial conducted follows a single protocol but conducted in more than 1 place
		multinational study - 
		placebo - treatment that has no active properties
		
		blinding or masking - procedure which one or more parties in a trial are kept unaware of which
		treatment arms participants have been assigned to
		blinding prevents conscious or unconscious bias in the executiong of clinical trial
		parties involved
			patient being treated
			clinical staff administering treatment
			physician assessing treatment
			team interpreting results
		unblinded - everyone is aware subject, investigator + team
		single blinded - subject not aware but investigator, team are
		double blinded - subject + investigator not aware but team are
		triple blinded - subject + investigator + team not aware 
		
		icf - inform consent form - legal document
		screening - activiies of interaction and intervention with potential subjects to determine eligilbity
		randomization - random allocation to choose individuals for treatment groups + control groups
		randomization is a process that allows each participant same chance of being assign intervention or control
		
		control group - do not receive clinical trial drug
			take 1 placebo each night 5% feel better
		intervention group - receive clinical trial drug
			take 1 trial drug each night 85% feel better
			
		treatment - TRT - treatment givent to subject
		followup - after treatment we will followup with subjects
		
		procedure - icf signed - scr - random - trt - followup
		
		element - each trial phase (phase 1-4)
		epoch - a group of elements is called epoch
		schedule visits
		unschedule visits
		
		
---------------------------------------------------------------------------------

video 6:

https://www.youtube.com/watch?v=ESsMQ8tmRq8&list=PLbW_LFBIHlxu2abXtm0KE3HSZu1YCuRMO&index=7
		
sdtm	

fda
	cdisc
		sdtm
		adam
		tlf
		
worflow
	study
	review documents 
		protocol
		crf - case report form - all information from case study for the subject
			ensure data collection 
			ensure fulfilling 
		sop  - standard operating procedures
		sap  - statistical analysis procedures
		raw datasets
				
		acrf -  created by cdm team
		        validated by TL
		        only PDF is accepted for acrf
			mapping of crf to domain + variables
			example - therapy type (crf)  = ac.actyp cmscat
				  adverse event (crf) = ae.aeterm aeterm 
				  
			sdtm IG 3.2 pdf
			
			specification document - done by biostat or TL
				excel file
				3 columns
					xxx
					variables
					4 rankings for priority (make acrf color coded)
			
			xfdf file - sas creates and contains annotation boxes
			process imports the xfdf file into pdf file
			
			difference between 
				clinical sas programmer 
				clinical research associate (responsible producing data)
				cdm (responsible producing data)

		acrf -  annonated crf
			blank crf
			protocol
			sdtm IG 3.2
			raw datasets
			crf guidelines
					
		sdtm mapping specification (manual process done by the TL / programmer)
			created by TL
			acrf
			protocol
			sdtm IG 3.2
			raw datasets
			contents 
				domain, 
				variable, 
				label, 
				type, 
				length, 
				control, 
				core - 
					req (cant be null), 
					exp (expected and can be missing), 
					perm (permissable - can have it or not)
				origin, 
				comments	
		
		programming plan
			example - 5 domains so broken into various programmers 
			
		program
			sas tool
			raw datasets (project manager + team will provide)
			sdtm IG 3.2 (information about variables)
				sex / format / label / length / source
			sdtm mapping specification excel
			acrf (source + variable)
		
		results
			sdtm output - sas datasets
			convert sas datasets into xpt files
			pinnacle 21
		
			xml file - define.xml + validation notes
		
		submit study 
			

---------------------------------------------------------------------------------

video 7:
https://www.youtube.com/watch?v=l3d5olGHqKw&list=PLbW_LFBIHlxu2abXtm0KE3HSZu1YCuRMO&index=8


sdtm - the basic 10 step workflow

	1. study
	
	2. review documents
		protocol
		raw datasets
		sdtm IG 3.2
		crf - case report form
		sop - standard operation procedure
		sap - statistical analysis procedure
		
	3. acrf - blank crf with annotations that document the location of data with dataset names and variables	
		blank crf
		protocol
		crf
		sdtm IG 3.2
		raw datasets
		saved as pdf and named blankcrf.pdf
		approach
			determine annotations in which pages and store them into an excel file
			develop a sas application which generates xfdf file containing annotation
			import xxfdf file inot pdf file and manual placement of the annotations-boxes in ther exact location
			
		
		you are going to prepare
			excel
			crf columns 
			sas = excel = xfdf
		
	4. sdtm mapping specification (data derived table)
		utilize a spec from another project or create new
		
	5. programming plan / programming implementation
		TL or scrum master
		who is working on 
		5 domains and 5 porgammers
		
	6. sdtm output (results - sas datasets)
		results - sas datasets
		in compliant with sdtm IG
		
	7. converting sas datasets into xpt files
		
	8. pinnacle 21 
	
	9. 2 outpput files...
		1. define.xml (used for submission
		2. validation notes
	
	10. submit study
	

sdtm domains

	notes... 
	dataset is grouping of observations
	domain is grouping of observations related from each dataset 
	
	class = FISTER = findings + interventions + special + trials + events + relationship


	special purpose domains
		dm - demographics
		co - comments (comments by the investigator)
		se - subject elements (element - clinical trial phase)
		sv - subject visits   (approach - group of elements)	
	interventions
		ex - exposure
		ec - exposure as collected
		cm - concomitant medication
		su - substance use		
	events
		ae - adverse events
		mh - medical history
		ds - disposition
		dv - protocol deviation
		ce - clinical events		
	findings
		lb - labaratory
		vs - vital signs
		eg - ecg test
		pe - physical examination
		ie - inclusion exclusion criteria
		dd - death details
		da - drug accountability	
	trial design models
		ta - trial arm
		ts - trial summaruy
		te - trial events
		tv - trial visits
		ti - trial inclusion 
		
	supplementary domains
	
	relrec domains
	
	
sdtm IG
	variable name
	variable label
	type
	controlled terms, codelist, format
	role
	cdisc notes
	core
	
	1. domain name contain only 2 letters
	2. every domain should have proper label 
		40 character max
		label is prop case
	3. variable names will not exceed 8 characters
		USUBJID
		AGE
		SEX
	4. final output should be in compliance sdtm IG 3.2
	
	5.  all sdtm date variables are character data type
		iso 8601 - date time
		date = 2022-04-07 = yymmdd10.
		iso8601da = 2022-04-07
		iso8601dt = 2022-04-07T21:00:00		
		
	core
		req - required
			cannot be null
			example - usubjid, sex, age
		
		exp - expected
			variable must be included in domain
			value is good to have but missing values are acceptable
			sponsor will determine if variable shouldbe include or exclude
			examplle - deathdate
			
		perm - permissable
			depends on sponsor to include or exclude these variables
			value is good to have but missing values are acceptable
			example - investigator name (invnam)
			
			sponsor will supply datasets so variables will be available or not
			if they are there good if not then who cares
			sponsor will make them avaialble or not
			
			required variable missing then meeting required
			
			mapping specification should have available
			if in crf and loaded BRTHDTC then we take it
			if BRTHDTC not availalbe then no value
						
	role
		identifier variables
		timing variables
		topic variables
		rule variables
		
	qualifiers
		record qualifier
		result qualifier
		grouping qualifier
		synonym qualifier
		variable qualifier
			
	cdisc notes
		
		
	note - important information within the interviews
		
---------------------------------------------------------------------------------

video 8:		

sdtm guidelines

	1. domain name can only contain 2 characters
		observation - rows in ad dataset are consistent of a series of named variables
	2. every domain should have a proper label
		label = dm = description / overview for the demographics domain model
		domain - collection of observations on a particular topic
	3. variable names will not excee 8 characters long
		variable - column in a dataset... variables can be classified according to role
	4. final output should be in compliance with sdtm IG 3.2
		role - describes type of information by the variable and how used
	5. all sdtm date variables are of character data type
		yymmdd10.
		is8601da. = 2024-12-25
		is8601dt. = 2024-12-25T21:00:00
		

		data x;
		format xx yymmdd10. xxx is8601da. xxxx is8601dt.;
		x=today();
		xx=x;
		xxx=x;
		xxxx=x;
		put _all_ ;
		run;		
	
	FISTER = findings + interventions + special + trials + events + relationship

core
	req  - required
	exp  - expected
	perm - permissible


role - 4 different roles

	1. identifier variables - gives identification
		domain
		studyid
		usubjid
	2. timing variables
		start date
		end date
		collection date
		measurement date
		example - AESTDTC (adverse event start date)
			  AEENDTC
			  LBDTC
			  VSDTC
	3. topic variable (FISTER = findings + interventions + special + trials + events + relationship)
	
		special purpose domains - only 1 topic variable per domain
			dm - demographics			- subjid
			co - comments				- coval
			se - subject elements			- etcd
			sv - subject visits			- visitnum			
		interventions - all treatment related - xxtrt				
			ex - exposure				- extrt
			ec - exposure as collected		- extrt
			cm - concomitant medication		- cmtrt
			su - substance use			- sutrt	
		events - something already happened - xxterm
			ae - adverse events			- aeterm
			mh - medical history			- mhterm
			ds - disposition			- dsterm
			dv - protocol deviation			- dvterm
			ce - clinical events			- csterm
		findings - all related to test category - xxtestcd
			lb - labaratory				- lbtestcd
			vs - vital signs			- vstestcd
			eg - ecg test				- egtestcd
			pe - physical examination		- petestcd
			ie - inclusion exclusion criteria	- ietestcd
				i - inclusion
				e - exclusion
			dd - death details			- ddtestcd
			da - drug accountability		- datestcd	
		trial design models
			ta - trial arm				- armcd
			ts - trial summaruy			- taparmcd
			te - trial events			- etcd (same as sv)
			tv - trial visits			- visitnum (same as sv)
			ti - trial inclusion 			- ietestcd (same as ie)		
			
			
	4. rule variables
		start rule and end rule information
		te - trial elements
			testrl - element start rule
			teenrl - element end rule
		tv - trial visits
			tvstrl - tv start rule
			tvenrl - tv end   rule

qualifiers
	record qualifier - ask subject and record this information
		examples:
			sex
			age
			race
			birth date
			ethnic
	result qualifier - information about any result
		examples:
			LBORRES  - lab original results
			LBSTREXC - lab standard results in character
			LBSTRESN - lab standard results in numeric
			
			VSORRES  - vital signs original results
			VSSTREXC - vital signs standard results in character
			VSSTRESN - vital signs standard results in numeric			
	grouping qualifier - grouping information
		examples:
			LABCAT - urine analysis
				LBTEST
					1
					2
					3
					4
			LBSCAT - diabetes	
				LBTEST
					FBS
					PBS
					HB1AC
			
	synonym qualifier - similar meaning variables
		examples
			AETERM		AEDECOD (medical dictionary codes)
			fever	  --->	pyroxia
			head ache ---> 	head ache
			
	variable qualifier - which contain units
		examples
			AGEU - years
			LBORRESU
			VSORRESU

	cdisc notes
		guidelines for variables
		how to derive / populate variables
		exact meaning of the variables


	next video start very 1st domain....
		special purpose domains
		DM - demographics

	------------------------- start
	CDISC SDTM ADaM Online Training??SAS Clinical Projects Training??Clinical SAS Training by Experts - 8
	https://www.youtube.com/watch?v=Vg_53o9S-DA&list=PLbW_LFBIHlxu2abXtm0KE3HSZu1YCuRMO&index=10
	stopped on 32:00 / 55:11



---------------------------------------------------------------------------------

video 9:
https://www.youtube.com/watch?v=ZLfhUWGJado&list=PLbW_LFBIHlxu2abXtm0KE3HSZu1YCuRMO&index=10

special purpose domains
	DM - demographics
	SDTM IG - use for domain creation

	
subject - patient participating in the study
role
	1. topic variable 	- SUBJID
	2. identifier variable 	- STUYID
	3. record qualifier 	- AGE, GENDER, DOB
	

clinical trials
	1. healthy volunteers
	2. patients suffering from same disease
	3. patients suffering from other disease

dates
	1. icf signed date
	2. treatment start date
	3. treatment end date
	4. death date
	5. dm demographic information collection date
	
	ICF - inform consent form 
	arms - different treatment groups
		intervention group
		control group
	washout period - time takes for treatment to flush out of body and start other treatment
	
variables
	STUDYID
	DOMAIN
	USUBJID
	SUBJID
	INVID - investigator identifier
	INVNAM
	RFICDTC
	RFPENDTC
	RFSTDTC
	RFENDTC
	RFXSTDTC
	RFXENDTC
	
	ARM
	ARMCD
	ACTARM
	ACTARMCD
	
	DTHDTC
	DTHFL
	BRTHDTC

	SITEID - Unique identifier for a site within a study.
	
	AGE
	AGEU
	RACE
	COUNTRY
	ETHNIC
	
	DMDTC
	DMDY

-------------------------------------------------------------------

identifier variable
	structure - one record per subject - 1 row 
	
	
	STUDYID 
		study identifier
		sponsor
		name of the stud as mentioned within the protocol
		example 
			CT1PM CM_08_10
			STUDYID=compbl('OLX.AVAIL.' || 'PSTM');
	DOMAIN 
		abbreviation of domain
		2 characters long
		upper case
		example 
			DM
			DOMAIN="&domain.";
	USUBJID 
		unique subject identifier
		derived by 3 variables
			STUDYID + SITEID + SUBJID
			create by concatenation of 3 variables
		example
			USUBJID	   ='OLX.AVAIL.' || "PSTM" || '.' || SUBJECTNUMBERSTR;
			
			
	assignment 1 =============================================================================================================
	
		details as per protocol...
			study name - NFP222G1 = STUDYID
			site details - HK111
			gender - m/f
			domain - DM
			
		patient details (dataset)...
			patient_ID	gender
			111		M
			222		Male
			333		Female
			444		F
			555		f
			666		m
			777		1
			888		2
						
				
		desired output...
		
			STUDYID		DOMAIN		USUBJID			SUBJID	SEX
			NFP222G1	DM		NFP222G1-HK111-111	111	M
			NFP222G1	DM		NFP222G1-HK111-222	222	M
			NFP222G1	DM		NFP222G1-HK111-333	333	F
			NFP222G1	DM		NFP222G1-HK111-444	444	F
			NFP222G1	DM		NFP222G1-HK111-555	555	F
			NFP222G1	DM		NFP222G1-HK111-666	666	M
			NFP222G1	DM		NFP222G1-HK111-777	777	M
			NFP222G1	DM		NFP222G1-HK111-888	888	F		
		
		code...
		
			data data_patient;
			input patient_ID $ gender $;
			cards;
			111		M
			222		Male
			333		Female
			444		F
			555		f
			666		m
			777		1
			888		2
			;
			run;		
		
			data dm;
			set data_patient;
				label 	STUDYID	= 'Study Identifier' 
					DOMAIN	= 'Domain Abbreviation'
					USUBJID	= 'Unique Subject Identifier'
					SUBJID	= 'Subject Identifier for the Study'
					SEX	= 'Sex'
					;
					
				SITEID  = "HK111";
				STUDYID = "NFP222G1";
				DOMAIN  = "DM";
				USUBJID	= STUDYID ||'-'|| SITEID ||'-'|| patient_ID;
				SUBJID  = patient_ID;
				
				if upcase(gender) = 'M' then SEX = 'M';
				else if upcase(gender) = 'F' then SEX = 'F';
				else if upcase(gender) = 'MALE' then SEX = 'M';
				else if upcase(gender) = 'FEMALE' then SEX = 'F';
				else if upcase(gender) = '1' then SEX = 'M';
				else if upcase(gender) = '2' then SEX = 'F';
				else SEX = 'U';
				keep STUDYID DOMAIN USUBJID SUBJID SEX;
			run;
			

	
	INVID
		investigator identifier
		doctor ID/clinician ID/nurse ID
		example
			TIN - taxpayer identification number  (9 characters)

	INVNAM
		investigator name
		name of doctor/clinician/nurse
		exmaple
			simon baker
			james spader
			
	RFICDTC
		rf - reference
		ic - inform consent
		dt - date
		c  - character
		Date/Time of Informed Consent
		when the subject signed the IFC
		all dates in sdtm are character
		examples:
			2022-04-12
			yyyy-mm-dd
			is8601da.
			
			2022-04-12T20:58:12
			yyy-mm-dd-thh:mm:ss
			is8601dt.
				
				
	assignment 2 =============================================================================================================
		
		patient details (dataset)...
			patient_ID	gender
			111		M
			222		Male
			333		Female
			444		F
			555		f
			666		m
			777		1
			888		2
			
		icf details (dataset)...
			patient_ID	term		date		time
			111		icf signed	09apr2016	10:01:12
			222		icf signed	09sep2020	10:01:12
			333		icf signed	19aug2020	10:01:12
			444		icf signed	22jul2020	10:01:12
			555		icf signed	15nov2020	10:01:12
					
		desired output...
			SUBJID		SEX		RFICDTC
			111		M		2016-04-09T10:01:12
			222		M		2020-09-09T10:01:12
			333		F		2020-08-19T10:01:12
			444		F		2020-07-22T10:01:12
			555		F		2020-11-15T10:01:12			

		code...
		
			data formats - https://stats.oarc.ucla.edu/wp-content/uploads/2016/02/bt3007.pdf

			data data_patient;
			format patient_ID $20. gender $20. ;
			input patient_ID $ gender $   ;
			infile datalines delimiter=',';
			cards;
			111,M
			222,Male
			333,Female
			444,F
			555,f
			666,m
			777,1
			888,2
			;
			run;	
			
			data data_icf;
			format patient_ID $20. term $20. date date9. time time8.;
			input patient_ID $ term $ date: date9. time: time8. ;
			infile datalines delimiter=',';
			cards;
			111,icf signed,09apr2016,10:01:12
			222,icf signed,09sep2020,10:01:12
			333,icf signed,19aug2020,10:01:12
			444,icf signed,22jul2020,10:01:12
			555,icf signed,15nov2020,10:01:12
			;
			run;
			
			proc sort data = data_patient; by patient_ID; run;
			proc sort data = data_icf; by patient_ID; run;
					
			data dm;
			merge data_patient (in=a)
			      data_icf (in=b);
			by patient_ID;
			if b;
			
				label 	STUDYID	= 'Study Identifier' 
					DOMAIN	= 'Domain Abbreviation'
					USUBJID	= 'Unique Subject Identifier'
					SUBJID	= 'Subject Identifier for the Study'
					SEX	= 'Sex'
					RFICDTC	= 'Date/Time of Informed Consent'
					;
					
				SITEID  = "HK111";	
				STUDYID = "NFP222G1";
				DOMAIN  = "DM";
				USUBJID	= STUDYID ||'-'|| SITEID ||'-'|| patient_ID;
				SUBJID  = patient_ID;
				
				if upcase(gender) = 'M' then SEX = 'M';
				else if upcase(gender) = 'F' then SEX = 'F';
				else if upcase(gender) = 'MALE' then SEX = 'M';
				else if upcase(gender) = 'FEMALE' then SEX = 'F';
				else if upcase(gender) = '1' then SEX = 'M';
				else if upcase(gender) = '2' then SEX = 'F';
				else SEX = 'U';
				
				**date='09apr2016'd;
				**time='10:01:12't;  
				X_RFICDT=dhms(date,0,0,time);
				RFICDTC=put(X_RFICDT,is8601dt.);
				RFICDTC2=put(input(catx(' ', put(date,yymmdd10.), put(time,time8.)), is8601dt.),is8601dt.);
				
				keep SUBJID SEX RFICDTC;
			run;



	RFSTDTC
		subject reference start date and time in char
		treatment start data and time in char
	

	RFENDTC
		subject reference end date and time in char
		study completed date and time in char -or- treatment end date in char
			can be either one 
			mutliple treatments within a study
		
		sequence of process...
			icf signed
			screening
			random
			treatment
			follow up
		
		important note
			1. when both are available...
				treatment end data and study end data available
				then priortity should be given to study end date
				
				4/04/2024 - treatment completed
				4/11/2024 - follow up completed <---- final date = RFENDTC
				
			2. RFSTDTC/RFENDTC can be null for unassigned subjects
				unassigned subjects - subjects failed in screening
						      subjects who are dropped
			

	assignment 3 =============================================================================================================			

		patient data...
		
			patient_ID	gender
			111		M
			222		Male
			333		Female
			444		F
			555		f
			666		m
			777		1
			888		2

			
		treatment details...
		
			patient_ID	treatment	treatment_date
			111		Drug A		2020-04-09
			111		Drug B		2020-12-11
			111		Drug B		2020-07-17
			222		Drug B		2020-09-12
			222		Drug B		2020-10-10
			333		Placebo		2020-08-11
			444		Drug A		2020-07-13
			444		Drug B		2020-07-31
			444		Placebo		2020-09-07
			555		Drug A		2020-06-16
			555		Drug A		2020-09-15
 
 	
 		desired output.... date format will be is8601da not is8601dt

			SUBJID		SEX		RFSTDTC		RFENDTC
			111		M		2020-04-09	2020-12-11
			222		M		2020-09-12	2020-10-10
			333		F		2020-08-11	2020-08-11
			444		F		2020-07-13	2020-09-07
			555		F		2020-06-16	2020-09-15


		code...
		
			data data_patient;
			format patient_ID $20. gender $20. ;
			input patient_ID $ gender $   ;
			infile datalines delimiter=',';
			cards;
			111,M
			222,Male
			333,Female
			444,F
			555,f
			666,m
			777,1
			888,2
			;
			run;	
			
			data data_treatment;
			format patient_ID $20. treatment $20. treatment_date date9.  ;
			input patient_ID $ treatment $ treatment_date: yymmdd10.  ;
			infile datalines delimiter=',';
			datalines;
			111,Drug A,2020-04-09
			111,Drug B,2020-12-11
			111,Drug B,2020-07-17
			222,Drug B,2020-09-12
			222,Drug B,2020-10-10
			333,Placebo,2020-08-11
			444,Drug A,2020-07-13
			444,Drug B,2020-07-31
			444,Placebo,2020-09-07
			555,Drug A,2020-06-16
			555,Drug A,2020-09-15
			;
			run;

			proc sort data = data_patient; by patient_ID; run;
			proc sort data = data_treatment; by patient_ID; run;
					
			data dm;
			merge data_patient 	(in=a)
			      data_treatment    (in=b);
			by patient_ID;
			if b ;		

				label 	STUDYID	= 'Study Identifier' 
					DOMAIN	= 'Domain Abbreviation'
					USUBJID	= 'Unique Subject Identifier'
					SUBJID	= 'Subject Identifier for the Study'
					SEX	= 'Sex'
					RFSTDTC	= 'Subject Reference Start Date/Time'
					RFENDTC	= 'Subject Reference End Date/Time'
					;
					
				SITEID  = "HK111";	
				STUDYID = "NFP222G1";
				DOMAIN  = "DM";
				USUBJID	= STUDYID ||'-'|| SITEID ||'-'|| patient_ID;
				SUBJID  = patient_ID;
				
				if upcase(gender) = 'M' then SEX = 'M';
				else if upcase(gender) = 'F' then SEX = 'F';
				else if upcase(gender) = 'MALE' then SEX = 'M';
				else if upcase(gender) = 'FEMALE' then SEX = 'F';
				else if upcase(gender) = '1' then SEX = 'M';
				else if upcase(gender) = '2' then SEX = 'F';
				else SEX = 'U';
				
				/** solution - C:\Users\uy2huh5\Documents\Brian\bss\medtronic\Medtronic  ADaM ADSL\cdisc_book\chapter 3\DM.sas **/
				/** step 1 - retain **/
				retain treatment_start_date treatment_end_date; 
				
				/** step 2 - reset for each member **/
				if first.patient_ID then do;
					treatment_start_date = .;
					treatment_end_date = .;
				end;

				/** step 3 - capture first and last date **/
				treatment_start_date = min(treatment_date,treatment_start_date,treatment_end_date);
				treatment_end_date   = max(treatment_date,treatment_start_date,treatment_end_date);

				/** step 4 - output 1 record which will have first and last date **/
				if last.patient_ID;
				
				X_RFSTDT=treatment_start_date;
				RFSTDTC=put(X_RFSTDT,is8601da.);
				
				X_RFENDT=treatment_end_date;
				RFENDTC=put(X_RFENDT,is8601da.);
												
				keep SUBJID SEX RFSTDTC RFENDTC ;
			run;



---------------------------------------------------------------------------------

video 10:
https://www.youtube.com/watch?v=KIANkyV27b8&list=PLbW_LFBIHlxu2abXtm0KE3HSZu1YCuRMO&index=11


special purpose domain

	DM - demographics
	
	subject
	topic variable - SUBJID
	identifier variable - STUDYID, DOMAIN, SIIBKOD
	record qualifier variable - gender, age,dob
	dates - icf signed date, treatment start date, treatment end date, death date

	USUBJID = derived by concatenation of STUDYID + SITEID + SUBJID
	
	RFSTDTC - equivalent to date/time when subject was first exposed to study treatment.
	


RFXSTDTC
	date time of first study treatmet
	what is difference between RFXSTDTC vs RFSTDTC
	
		entire study start date and time in char format
		example 1
			study drug - fever
			he is having vomiting sesation
			first we provide drug to control vomit only after that we go with study drug
			vomit (support treatment) - 4/10/2022 = RFXSTDTC
			fever (study treatment)   - 4/11/2022 = RFSTDTC
			
			if subject doesnt go for any support treatment - in that case
			RFXSTDTC = RFSTDTC
		
		example 2
			multi center study / multi national study
			RFXSTDTC = subject had a treatment in site1
			RFSTDTC  = and same subject different treatment in site2 considering a washout period
	
		RFXSTDTC - First date/time of exposure to any protocol-specified 
		treatment or therapy, equal to the earliest value of EXSTDTC.
		
		RFSTDTC - Reference start date/time for the subject in ISO 8601 character format. 
		Usually equivalent to date/time when subject was first exposed to study treatment. 
		See assumption 9 for additional detail on when RFSTDTC may be null.


RFXENDTC
	study treatment end date and time in char format
	example
		SUBJID		SEX		RFXSTDTC	RFSTDTC		RFXENDTC	RFENDTC
		111		M		2022-03-01	2022-03-02	2022-03-16	2022-03-16

		SUBJID		SEX		RFXSTDTC	RFSTDTC		RFXENDTC	RFENDTC
		222		F		2022-03-01	2022-03-10	2022-03-16	2022-03-30 
		
		orthonet:
			problem - burning knee cap
				RFXSTDTC = 2022-03-01 = injecting gel in knee cap 	(original treatment)
				RFSTDTC  = 2022-03-10 = knee replacement 		(study treatment)
				RFXENDTC = 2022-03-16 = healing medicine		(study treatment ended)
			follow up
				RFENDTC  = 2022-03-30 = supporting medicine		(compelete treatment ended)

RFPENDTC
	reference end participation date and time char
		study completion date
		follow up date
		death date
		discontinue date
		
	example - subject starts on 2022-03-01 and stops... this becomes end participation date - RFPENDTC

	example
		SUBJID		SEX		RFXSTDTC	RFSTDTC		RFXENDTC	RFENDTC		RFPENDTC
		111		M		2022-03-01	2022-03-02	2022-03-16	2022-03-16	2022-03-16

		
		after RFXENDTC - 2022-03-16 the hospital doesnt need any more visits then RFXENDTC = RFENDTC + RFPENDTC

		the patient doesnt attend follow up after RFSTDTC so no RFENDTC + RFPENDTC
		SUBJID		SEX		RFXSTDTC	RFSTDTC		RFXENDTC	RFENDTC		RFPENDTC
		222		F		2022-03-01	2022-03-10	2022-03-16			
		
		so then RFENDTC = RFXENDTC
		the patient doesnt attend follow up so no value for RFXENDTC becomes RFPENDTC
		SUBJID		SEX		RFXSTDTC	RFSTDTC		RFXENDTC	RFENDTC		RFPENDTC
		222		F		2022-03-01	2022-03-10	2022-03-16	2022-03-16 	


		the patient doesnt attend after RFXSTDTC... then everything blank but last participation = RFXSTDTC
		SUBJID		SEX		RFXSTDTC	RFSTDTC		RFXENDTC	RFENDTC		RFPENDTC
		222		F		2022-03-01					 	 	2022-03-01  



	1 RFSTDTC  - R  = reference
	2 RFENDTC  - R  = reference
	3 RFXSTDTC - X  = treatment - 1st  treatment 
	4 RFXENDTC - X  = treatment - last treatment
	5 RFCSTDTC - C  = challenge agent
	6 RFCENDTC - C  = challenge agent 
	7 RFICDTC  - IC = informed consent
	8 RFPENDTC - P  = end of participation
	9 DTHDTC   - D  = death
	
	if first.USUBJID then do;
		RFSTDTC  = VISIT_START;
		RFENDTC  = VISIT_END;
		RFXSTDTC = DOSE_START;
		RFXENDTC = DOSE_END;
		RFCSTDTC = VISIT_START;
		RFCENDTC = VISIT_END;
		RFICDTC  = INFORMED_CONSENT;
		RFPENDTC = VISIT_END;
	end;	


DTHDTC
	subject date and time in character format
	ISO 8601 datetime
	important note
		domain - DS
		if DSTERM = "DEATH" then DSSTDTC - death date
		
		domain - AE
		if AEOUT  = "DEATH" then AEENDTC - death date
		

DTHFL
	death flag - 2 values only - Y or N



	assignment 4 =============================================================================================================
	
	input data
	
	demographic domain
	patient details

		patient_ID	gender
		111		M
		222		Male
		333		Female
		444		F
		555		f
		666		m
		777		1
		888		2

	DS

		patient_ID	term			stdt
		111		death			2022-03-11
		222		study completed		2022-04-14
		333		study completed		2022-04-14
		444		death			2022-03-31
		555		study completed		2022-04-14
			
	desired output
		
		SUBJID	SEX	DTHDTC		DTHFL
		111	M	2022-03-11	Y
		222	M			N
		333	F			N
		444	F	2022-03-31	Y
		555	F			N
		
		
	code...
	
			data data_patient;
			format patient_ID $20. gender $20. ;
			input patient_ID $ gender $   ;
			infile datalines delimiter=',';
			cards;
			111,M
			222,Male
			333,Female
			444,F
			555,f
			666,m
			777,1
			888,2
			;
			run;	
			
			data data_death;
			format stdt date9.  ;
			input patient_ID: $20. term: $20. stdt: yymmdd10.  ;
			infile datalines delimiter=',';
			datalines;
			111,Death,2020-04-09
			222,study completed B,2020-09-12
			333,study completed,2020-08-11
			444,Death,2020-07-13
			555,study completed,2020-06-16
			;
			run;	
	
	
			proc sort data = data_patient; by patient_ID; run;
			proc sort data = data_death; by patient_ID; run;
					
			data dm;
			merge data_patient  (in=a)
			      data_death    (in=b);
			by patient_ID;
			if a ;		

				label 	STUDYID	= 'Study Identifier' 
					DOMAIN	= 'Domain Abbreviation'
					USUBJID	= 'Unique Subject Identifier'
					SUBJID	= 'Subject Identifier for the Study'
					SEX	= 'Sex' 
					DTHFL   = 'Subject Death Flag'
					DTHDTC  = 'Date/Time of Death'
					;
					
				SITEID  = "HK111";	
				STUDYID = "NFP222G1";
				DOMAIN  = "DM";
				USUBJID	= STUDYID ||'-'|| SITEID ||'-'|| patient_ID;
				SUBJID  = patient_ID;
				
				if upcase(gender) = 'M' then SEX = 'M';
				else if upcase(gender) = 'F' then SEX = 'F';
				else if upcase(gender) = 'MALE' then SEX = 'M';
				else if upcase(gender) = 'FEMALE' then SEX = 'F';
				else if upcase(gender) = '1' then SEX = 'M';
				else if upcase(gender) = '2' then SEX = 'F';
				else SEX = 'U';
				
				if upcase(term) = 'DEATH' then DTHFL = 'Y';
				else DTHFL = 'N';
				
				X_DTHDT=stdt;
				DTHDTC=put(X_DTHDT,is8601da.);
				if X_DTHDT = . then DTHDTC='';
				if DTHFL = 'N' then DTHDTC='';
												
				keep SUBJID SEX DTHDTC DTHFL;
			run;
	
	
	
	
		
BRTHDTC
	subject date of birth in character format
	
AGE
	subject age
	when the icf was signed
	
	AGE = (RFICDTC - BRTHDTC) / 365.25
	
	note - most studys will last a year
		however... hiv and cancer can last longer... so subject can be in study for 8 years

AGEU
	age in units
	always years

COUNTRY
	represents with country code
	it should be 3 characters long
	example - USA, IND
	
	
RACE
	black
	white
	asia
	other - italian, brazilian, canadian
	important note
		if race is OTHER we will passsing information to SUPPLEMENT domain
		DM = SUPPDM
		AE = SUPPAE
		
ETHNIC
	ethnicity of respective country
	LATIN AMERICAN
	INIDAN
	AMERICAN



topics for next training session...

DMDTC
DMDY
ARM
ARMCD



---------------------------------------------------------------------------------

video 11:
https://www.youtube.com/watch?v=UML32QDDaDM&list=PLbW_LFBIHlxu2abXtm0KE3HSZu1YCuRMO&index=12






















---------------------------------------------------------------------------------
sas solutions:
	https://support.sas.com/resources/papers/proceedings17/1352-2017.pdf

	1. DETERMINE IF SETUP PROGRAMS ALREADY EXIST 	
	2. TRANSFORM GENERAL VARIABLES BASED ON THE VARIABLE TYPE. 
	3. DEALING WITH SPECIFIC VARIABLES FOR EACH DOMAIN 
	4. TRANSFORM  DATA FROM HORIZONTAL TO VERTICAL (VS AND EG) 
	5. CALCULATE --DY AND --SEQ VARIABLES 
	6. CALCULATE --BLFL VARIABLES FOR SOME FINDINGS DOMAINS 
	7. FINALIZE THE DATA AND SAVE TO SDTM LIBRARY 
	8. NOTIFY UNSOLVED CDASH VARIABLES 

cool sas + macros - Lilly + Parexel

	https://github.com/77QingLiu/SAS-Program-Library/tree/d80fbc03deb935db3a90155408cd191f5a279317/2-SAS%20Learning/0-Macro
	
	SAS Papers related to CDISC - https://www.lexjansen.com/cdisc/
	solutions...
	Table driven Solution 1 - https://www.lexjansen.com/pharmasug/2007/ad/AD17.pdf
	Automating SDTM Using a Metadata-Driven - https://pharmasug.org/proceedings/2024/MM/PharmaSUG-2024-MM-267.pdf
	

company IL - https://biopharmguy.com/links/state-il-all-geo.php

company sites  
	https://careers.medpace.com/jobs?keywords=sas&location=&page=1&sortBy=relevance&country=United%20States
	https://www.syneoshealth.com/careers/jobs/15213319-sr-statistical-programmer
	https://jobs.iqvia.com/en/search-jobs/sas/United%20States/24443/1/2/6252001/39x76/-98x5/50/2
	https://careers.iconplc.com/jobs?q=sas&options=&page=1
	https://careers.iconplc.com/job/statistical-programmer-in-united-states-jid-39650
	https://careers.labcorp.com/global/en/job/2266899/Senior-Statistical-Programmer
	https://jobs.thermofisher.com/global/en/search-results?m=3&keywords=sas
	https://careers.abbvie.com/en/jobs?q=sas&options=&page=1&la=0&lo=0&lr=100
	https://jobs.parexel.com/en/search-jobs/sas/877/1?glat=37.4182014465332&glon=-121.9530029296875
	https://careers.smartrecruiters.com/BicycleTherapeutics/careers-page
	https://www.wcgclinical.com/about/careers/
	Katalyst HealthCares & Life Sciences (blocked at CVS - but lots of jobs)
	https://www.ingenworks.com/careers.php
	https://www.princetonpharmatech.com/about/careers/
	https://www.taihooncology.com/us/careers/job-postings/
	https://springworkstx.com/careers/view-opportunities
	https://careers.sagerx.com/jobs/?search=cro&pagesize=20#results

big company
	Merck - https://jobs.merck.com/us/en/search-results?keywords=sas
	Bristol Myers Squibb - https://jobs.bms.com/careers?query=SAS%20Institute&pid=137465018148&domain=bms.com&sort_by=relevance&triggerGoButton=false
	Johnson & Johnson - 
	AstraZeneca
	GlaxoSmithKline - GSK
	celgene
	biogen
	amgen
	pfizer - https://www.pfizer.com/about/careers
	Sanofi
	roche
	eli lilly
	gilead sciences
	abbvie
	abbot
	novartis
	baxter


small company
	https://clinicaltrials.gov/
	https://clinicaltrials.gov/search?term=Adaptimmune
	https://clinicaltrials.gov/study/NCT03391778?term=Adaptimmune&rank=1

	WizSolution Research LLC <-------------------------------------------- cro
	LLX Solutions LLC <-------------------------------------------- cro
	prometrika <-------------------------------------------- cro
	katalyst healthcare & life sciences <-------------------------------------------- cro (lots of jobs on site)


	Invivyd <-------------------------------------------- sponsor - biopharmaceutical viral infectious diseases
	Adaptimmune <-------------------------------------------- sponsor - cell therapies / hire consultants
	https://www.adaptimmune.com/pipeline
	dataplus pharma services
	tesaro, Inc 
	Eliassen Group <-------------------------------------------- cro / hire consultants = mansfield, MA
	alira health 
	accell clinical research <-------------------------------------------- cro / hire consultants = warrenton, virginia
	ascentage pharma

	iavi <-------------------------------------------- abby isaacs from valence health
	biomarin
	ionis pharmaceuticals
	portola pharmaceuticals - Portola is now a wholly owned subsidiary of Alexion in 2020


Jobs in IL

	Illinois Biotech, Pharmaceutical & Life Sciences Companies - https://biopharmguy.com/links/state-il-all-geo.php

	Abbott - https://www.jobs.abbott/us/en/search-results?keywords=sas
	Statistical Analyst - Medical Devices
	Clinical Data Management Analyst
	Sr. Manager Post Market Reporting and Data Analytics


	Pfizer			Lake Forest, IL	Sterile Injectables
	Spherotech		Lake Forest, IL	Microparticles for Diagnostics
	Fresenius Kabi		Lake Zurich, IL	Infusion Therapy
	Tian Medical		Libertyville, IL	Nasal Injector
	Nexus Pharmaceuticals	Lincolnshire, IL	Repurposing off-patent molecules
	Hubly Surgical		Lisle, IL	Brain Surgery Drill
	Ontogen Medtech		Lisle, IL	Medical device development services
	bioMerieux		Lombard, IL	Diagnostics
	Fresenius Kabi		Melrose Park, IL	Contract Manufacturing
	Vyaire Medical		Mettawa, IL	Respiratory-related Devices
	Regis Technologies	Morton Grove, IL	Synthesis & Separations
	SparX Biopharmaceutical	Mount Prospect, IL	Antibody Therapies
	AtCor Medical		Naperville, IL	Cardiovascular diagnostic devices
	Cloudbyz		Naperville, IL	Clinical Trial Management Software
	Endotronix		Naperville, IL	Wireless Health Monitoring
	Human Cell		Naperville, IL	Contract Manufacturing, Research Reagents
	physIQ			Naperville, IL	Proprietary personalized analytics and IT platform
	32 Biosciences		North Chicago, IL	Microbiome Therapeutics & Diagnostics
	AbbVie			North Chicago, IL	Small Molecules, Biologics, Contract Manufacturing
	BLR Bio			North Chicago, IL	Cancer Therapy
	Astellas		Northbrook, IL	Small Molecules, ADC, Cell Therapy, Gene Therapy, Viral, Antibodies
	Endevica Bio		Northbrook, IL	Cachexia Treatment
	GenUs BioSystems	Northbrook, IL	Optimization of microarray experimentation and analysis


Good info and overview of topics - https://www.sofpromed.com/what-is-an-electronic-data-capture-edc-system-in-clinical-trials
https://www.sofpromed.com/
https://www.sofpromed.com/list-of-cros-for-clinical-trials-in-the-united-states
	1. Sofpromed
	2. ProTrials Research, Inc.
	3. Cromos Pharma
	4. Medelis <-------------------------------------------- good one
	5. Criterium
	6. Advanced Clinical
	7. Quality Data Service
	8. Prometrika <-------------------------------------------- good one
	9. Veristat
	10. InClin
	11. ProSciento
	12. Emmes  <-------------------------------------------- good one
	13. Spaulding Clinical
	14. Lotus Clinical Research
	15. PRC Clinical
	16. SciQuus Oncology
	17. MMS
	18. MCRA  <-------------------------------------------- IQVIA
	19. Integrium
	20. Theradex


EDC - Electronic Data Capture Systems
https://www.sofpromed.com/best-10-electronic-data-capture-systems-for-clinical-trials
	Viedoc
	Anju TrialMaster
	Medrio
	Medidata Rave
	Clinical One
	OpenClinica
	Marvin
	Castor
	Veeva Vault
	Klindat
	
https://communities.sas.com/t5/SAS-Health-and-Life-Sciences/Do-EDC-solutions-often-provide-direct-access-to-data-from-SAS/td-p/198823



Top Clinical Research Organizations (CRO)
https://biopharmguy.com/links/company-by-location-clinical-research.php
https://guides.clarahealth.com/top-clinical-research-organizations/
https://www.ventureradar.com/startup/CRO
https://www.proclinical.com/blogs/2024-5/top-10-cros-to-watch-in-2024
	IQVIA 
	Parexel
	PRA Health Sciences
	Worldwide Clinical Trials 
	Syneos Health
	Thermo Fisher Scientific Inc. 
	Labcorp 
	ICON 
	WuXi Clinical 
	Medpace
	PPD
	KCR
	Clintec
	CTI
	Advanced Clinical
	Pharm-Olam
	Clinipace


top 100 Pharma Companies
https://www.chemanalyst.com/ChemAnalyst/PharmaCompanies
https://www.contractpharma.com/heaps/view/11641/1/

	Ranking	Companies	
	1	Janssen/Johnson Johnson         
	2	Roche                          	
	3	Merck                          	
	4	Pfizer                          
	5	AbbVie                          
	6	Bayer                          	
	7	Sanofi                          
	8	AstraZeneca                     
	9	Novartis                        
	10	Bristol-Myers Squibb            
	11	Abbott EPD                      
	12	Shanghai Pharma Mfg             
	13	CR Pharma Segment               
	14	Eli Lilly                       
	15	Novo Nordisk                    
	16	GlaxoSmithKine (GSK)            
	17	Takeda 				
	18	Amgen                          	
	19	Boehringer Ingelheim            
	20	Gilead                          

---------------------------------------------------------------------------------
job descriptions:

Senior Statistical Analyst (Remote)
AbbVie

	Qualifications
	MS in Statistics, Computer Science or a related field with 5+ years of relevant experience
	OR BS in Statistics, Computer Science or a related field with 7+ years of relevant experience
	Indepth understanding of SAS programming concepts and techniques related to drug development
	Fundamental understanding of CDISC Standards
	Fundamental understanding of the drug development process, including experience with regulatory filings
	Ability to communicate clearly both oral and written
	Ability to accurately estimate effort required for study related programming activities

	Responsibilities
	The Senior Statistical Analyst is a key role in the research and development of new pharmaceutical products
	The primary responsibilities for this role include the analysis and reporting of clinical trial data and leading the statistical programming activities for clinical studies and projects with lower complexity
	The Senior Statistical Analyst interfaces with key stakeholders (i.e. Statistics, Clinical Data Strategy & Operations, Medical Writing, Regulatory Publishing and Development Operations.)
	Leads the statistical programming activities for projects with lower complexity
	Leads the statistical programming activities for studies
	Create documentation for regulatory filings including reviewers guides and data definition documents
	Leads the development of standard SAS Macros
	Provides oversight and mentoring of assigned Statistical Programmers and Statistical Analysts
	Develop SAS programs for the creation of ADaM data sets following CDISC standards
	Develop SAS programs for the creation of Tables, Listings and Figures
	Validation of ADaM data sets, Tables, Listings and Figures
	Create specifications for the structure of ADaM data sets for individual studies and integrated data
	Participates in the development of standard operating procedures
	This role can be based remotely within the US
	If you are located within a commutable distance to an AbbVie office the role may be Hybrid


Pharmacometrics Programmer (Hybrid, IL Based)
AbbVie

	Responsibilities
	The Statistical Programmer is an integral project team member in the research and development of new pharmaceutical products
	The primary responsibilities for this role include the analysis and reporting of clinical trial data under the direction and oversight of a Senior Statistical Analyst
	The Statistical Programmer interfaces with Statistics, Data Sciences and Development Operations
	Develop SAS programs for the creation of Analysis data sets
	Consolidate heterogeneous data sources (e.g. clinical study databases, external databases, real-world data) to prepare analysis-ready data sets within a defined quality control process supporting a particular project, study or asset deliverable
	Validation of SAS programs used for regulatory Submissions
	Perform exploratory data analyses and visualizations in interaction with the clinical pharmacologist or pharmacometrician
	Produce dynamic and static data visualizations to communicate quantitative analyses
	Create documentation for regulatory filings
	Participate in the development of standard SAS Macros
	Statistical Programmers & Statisticians

	Responsibilities:
	• Develop SAS programs for the creation of Analysis data sets
	• Consolidate heterogeneous data sources (e.g. clinical study databases, external databases, real-world data) to prepare analysis-ready data sets within a defined quality control process supporting a particular project, study or asset deliverable
	• Validation of SAS programs used for regulatory Submissions.
	• Perform exploratory data analyses and visualizations in interaction with the clinical pharmacologist or pharmacometrician
	• Produce dynamic and static data visualizations to communicate quantitative analyses
	• Create documentation for regulatory filings
	• Participate in the development of standard SAS Macros.

	Qualifications
	• MS in Statistics, Computer Science or a related field with 0+ years of relevant experience. OR BS in Statistics, Computer Science or a related field with 2+ years of relevant experience.
	• Demonstrated practical understanding of SAS programming concepts and techniques.
	• Ability to communicate clearly both oral and written.


Career Opportunities: Senior Statistical Programmer - Remote (FSP) (15065)
Cytel • Wisconsin • via Jobgether

	Qualifications
	As a Senior Statistical Programmer, you will leverage your advanced SAS programming skills and proficiency in CDISC standards (SDTM & ADaM) to support or lead one or more Phase I-IV clinical trials
	Bachelor’s degree in one of the following fields Statistics, Computer Science, Mathematics, etc
	At least 4 years of SAS programming working with clinical trial data in the Pharmaceutical & Biotech industry with a bachelor’s degree or equivalent
	At least 3 years of related experience with a master’s degree or above
	Strong SAS data manipulation, analysis and reporting skills
	Solid experience implementing the latest CDISC SDTM / ADaM standards
	Strong QC / validation skills
	Good ad-hoc reporting skills
	Proficiency in Efficacy analysis
	Familiarity with drug development life cycle and experience with the manipulation, analysis and reporting of clinical trials’ data
	Submissions experience utilizing define.xml and other submission documents
	Excellent analytical & troubleshooting skills
	Ability to provide quality output and deliverables, in adherence with challenging timelines
	Ability to work effectively and successfully in a globally dispersed team environment with cross-cultural partners

	Responsibilities
	This role can be performed as fully remote
	Performing data manipulation, analysis and reporting of clinical trial data, both safety and efficacy (ISS/ISE), utilizing SAS programming
	Generating and validating SDTM and ADaM datasets/analysis files, and tables, listings, and figures ( TLFs)
	Production and QC / validation programming
	Generating complex ad-hoc reports utilizing raw data
	Applying strong understanding/experience of Efficacy analysis
	Creating and reviewing submission documents and eCRTs
	Communicating with and/or responding to internal cross-functional teams and client for project specifications, status, issues or inquiries
	Performing lead duties when called upon
	Serving as team player, with a willingness to go the extra distance to get results, meet deadlines, etc
	Being adaptable and flexible when priorities change


Principal Statistical data scientist
Pfizer
	Responsibilities
	At least 5 - 6 years relevant experience in a pharmaceutical, biotech, CRO, or Regulatory Agency.
	Accountable for the quality and timely delivery of of enterprise, study and asset level deliverables of standard statistical programming encompassing the following areas: CDISC SDTM, ADaM, and TLF generation
	Demonstrate experience working as part of a software development team and fundamental SDLC processes
	Ensures excellence in the understanding of CDISC IG requirements, NCI Control Terminology, and programming of analysis ready datasets, tables, listings, and figures for which they are responsible
	Ensures adherence to Pinnacle 21 CDISC validation checks and high quality programming standards in their daily work
	Exhibits routine and occasionally complex problem solving skills, seeking direction when appropriate
	Works with statisticians and programming leads to ensure clear specifications for their programmed deliverables are in place
	Will be knowledgeable of software development practices as defined within Pfizer’s CDISC development framework
	May contribute to department level initiatives


Statistical Programmer II at McKesson Indiana
McKesson • Indiana • via Palagrit

	Qualifications: 
	Bachelor's degree, or foreign equivalent, in Computer Science, Business Analytics, 
	Statistics, Engineering, or related field and one (1) year of experience in the job offered or related occupation
	Must have one (1) year of experience in each of the following skills: DB SAS BASE, SAS MACROS, 	SAS/GRAPH, SAS SQL, SAS, SAS and STAT; Pinnacle 21; SDTM IG V3.2; Adam IG V1.1; 
	working with Oncology data and end points including Overall Survival, Progression Free Survival, Time to 
	Response, Time to Progression, and Duration of Response; Microsoft Suite; Data Queries; and Data Mining, Windows OS, Beyond Compare

	Responsibilities: 
	Create tables, figures, and listings using SAS, and provide support to the data management team in resolving data issues
	Create and validate SAS programs and datasets that comply with SDTM & ADAM. which are defined by CDISC
	Communicate with Biostatisticians to formulate a statistical analysis plan (SAP) for clinical studies and annotated the CRF (Case Report Form)
	Compile reports, charts, and graphs to interpret and describe findings of data analysis
	Gather requirements and specifications for data analysis and report generation by interacting with clinical scientists, biostatisticians, and data management teams
	Work on optimization of SAS programs to make them run more efficiently to give better productivity
	Update the SDTM and ADAM datasets by analyzing issues reported through Pinnacle 21 validator 
	Work on ad hoc analysis by providing outputs to support submissions/conferences like DSUR and ASCO


Responsibilities
	Perform the role of the Lead Statistical Programmer
	Plan, execute and oversee all programming activities on a study, including but not limited to, resource estimation, working within budget, meeting timelines, maximizing quality, interaction with other departments and the client, etc
	Develop and maintain SAS programs to create complete SDTM and ADaM datasets and TFLs, and perform QC of SDTM, ADaMs and TFLs
	Produce Define XML/PDFs, Analysis Results Metadata (ARM), aCRFs and Reviewers Guides to support SDTMs and ADaMs
	Develop and/or lead the development of complex specifications for SDTMs and ADaM datasets and contribute to the development of Labcorp Drug Development and Client standards
	Review SAPs and TFL shells from a programming perspective for studies and advise on the development of complex TFL shells from a programming perspective
	Mentor less-experience programmers in the processes around SDTMs, ADaMs and TFLs ensuring adherence to department practices and processes
	Present and share knowledge at department meetings
	Respond to QA and client audits and support qualification audits
	Contribute to proposal activities and participate in bid defenses meetings in order to win new business
	Continually identify and suggest ways to improve the efficiency, quality and productivity of statistical programming
	And all other duties as needed or assigned


Responsibilities
	As a Principal Statistical Programmer with a specialized focus on PK/PD, you will play a pivotal role in the design, execution, and analysis of clinical trials to support the development of our promising drug candidates
	Leveraging your extensive knowledge of statistical programming and PK/PD principles, you will collaborate closely with cross-functional teams of scientists, clinical researchers, and biostatisticians to ensure the successful implementation of our clinical development programs
	PK/PD Data Analysis:
	Conduct comprehensive PK/PD data analysis using appropriate statistical methodologies to support clinical trial designs and assist in decision-making processes
	Statistical Programming:
	Develop and implement robust and efficient statistical programming solutions for analyzing PK/PD data, adhering to industry best practices and regulatory standards
	Protocol Development:
	Provide valuable input during protocol development, ensuring proper incorporation of PK/PD endpoints and statistical methodologies
	Clinical Trial Support:
	Collaborate with cross-functional teams to ensure the timely and accurate delivery of PK/PD data analysis for ongoing clinical trials, supporting data interpretation and presentation
	Regulatory Submissions:
	Contribute to regulatory submissions by preparing and validating PK/PD datasets, analysis outputs, and documentation in compliance with relevant regulatory guidelines
	Innovation and Methodology:
	Stay abreast of the latest developments in PK/PD methodologies, statistical programming techniques, and industry best practices, and apply them effectively to enhance drug development strategies
	Drive continuous improvement in statistical programming processes and contribute to the development of standard operating procedures (SOPs) to streamline PK/PD data analysis
	IQVIA’s ability to operate and provide certain services to customers and partners necessitates IQVIA and its employees meet specific requirements regarding COVID-19 vaccination status

---------------------------------------------------------------------------------